{
  "resourceType": "Bundle",
  "id": "9C7635DA-DE6A-38CE-B790-163048F0D390",
  "type": "collection",
  "entry": [
    {
      "resource": {
        "resourceType": "MedicationRequest",
        "id": "A7B86F8D-1D45-FC28-E050-D20AE3A215F0",
        "groupIdentifier": {
          "extension": [
            {
              "url": "https://fhir.nhs.uk/R4/StructureDefinition/Extension-eps-parentPrescriptionId",
              "valueIdentifier": {
                "system": "https://fhir.nhs.uk/Id/prescription-parent-id",
                "value": "A7B86F8D-1CF2-FC28-E050-D20AE3A215F0"
              }
            }
          ],
          "system": "https://fhir.nhs.uk/Id/prescription-short-form",
          "value": "76787C-C81007-00001G"
        },
        "category": [
          {
            "coding": [
              {
                "system": "urn:oid:2.16.840.1.113883.2.1.3.2.4.17.25",
                "code": "0101"
              }
            ]
          }
        ],
        "status": "active",
        "intent": "order",
        "medicationCodeableConcept": {
          "coding": [
            {
              "system": "http://snomed.info/sct",
              "code": "323888003",
              "display": "Cefalexin 250mg/5ml oral suspension"
            }
          ]
        },
        "dispenseRequest": {
          "quantity": {
            "value": 100,
            "unit": "ml",
            "system": "http://snomed.info/sct",
            "code": "258773002"
          },
          "performer": {
            "reference": "urn:uuid:15aa7fc0-83a2-44ff-9fb6-c9afff3fd181"
          }
        },
        "authoredOn": "2020-06-10T12:06:00.000Z",
        "dosageInstruction": [
          {
            "text": "One 5ml spoonful to be taken every SIX hours"
          }
        ],
        "subject": {
          "reference": "urn:uuid:b96806f2-0e43-4046-30f3-bd444965afb3"
        },
        "requester": {
          "reference": "urn:uuid:dbaa616b-e23c-4d53-0f82-b2d178db79ca"
        },
        "recorder": {
          "reference": "urn:uuid:dbaa616b-e23c-4d53-0f82-b2d178db79ca"
        }
      },
      "fullUrl": "urn:uuid:A7B86F8D-1D81-FC28-E050-D20AE3A215F0"
    },
    {
      "resource": {
        "resourceType": "MedicationRequest",
        "id": "A7B86F8D-1D4A-FC28-E050-D20AE3A215F0",
        "groupIdentifier": {
          "extension": [
            {
              "url": "https://fhir.nhs.uk/R4/StructureDefinition/Extension-eps-parentPrescriptionId",
              "valueIdentifier": {
                "system": "https://fhir.nhs.uk/Id/prescription-parent-id",
                "value": "A7B86F8D-1CF2-FC28-E050-D20AE3A215F0"
              }
            }
          ],
          "system": "https://fhir.nhs.uk/Id/prescription-short-form",
          "value": "76787C-C81007-00001G"
        },
        "category": [
          {
            "coding": [
              {
                "system": "urn:oid:2.16.840.1.113883.2.1.3.2.4.17.25",
                "code": "0101"
              }
            ]
          }
        ],
        "status": "active",
        "intent": "order",
        "medicationCodeableConcept": {
          "coding": [
            {
              "system": "http://snomed.info/sct",
              "code": "374372000",
              "display": "Betamethasone valerate 0.1% cream"
            }
          ]
        },
        "dispenseRequest": {
          "quantity": {
            "value": 100,
            "unit": "gram",
            "system": "http://snomed.info/sct",
            "code": "258682000"
          },
          "performer": {
            "reference": "urn:uuid:15aa7fc0-83a2-44ff-9fb6-c9afff3fd181"
          }
        },
        "authoredOn": "2020-06-10T12:06:00.000Z",
        "dosageInstruction": [
          {
            "text": "Apply sparingly to the affected area"
          }
        ],
        "subject": {
          "reference": "urn:uuid:b96806f2-0e43-4046-30f3-bd444965afb3"
        },
        "requester": {
          "reference": "urn:uuid:dbaa616b-e23c-4d53-0f82-b2d178db79ca"
        },
        "recorder": {
          "reference": "urn:uuid:dbaa616b-e23c-4d53-0f82-b2d178db79ca"
        }
      },
      "fullUrl": "urn:uuid:A7B86F8D-1D86-FC28-E050-D20AE3A215F0"
    },
    {
      "resource": {
        "resourceType": "MedicationRequest",
        "id": "A7B86F8D-1D4F-FC28-E050-D20AE3A215F0",
        "groupIdentifier": {
          "extension": [
            {
              "url": "https://fhir.nhs.uk/R4/StructureDefinition/Extension-eps-parentPrescriptionId",
              "valueIdentifier": {
                "system": "https://fhir.nhs.uk/Id/prescription-parent-id",
                "value": "A7B86F8D-1CF2-FC28-E050-D20AE3A215F0"
              }
            }
          ],
          "system": "https://fhir.nhs.uk/Id/prescription-short-form",
          "value": "76787C-C81007-00001G"
        },
        "category": [
          {
            "coding": [
              {
                "system": "urn:oid:2.16.840.1.113883.2.1.3.2.4.17.25",
                "code": "0101"
              }
            ]
          }
        ],
        "status": "active",
        "intent": "order",
        "medicationCodeableConcept": {
          "coding": [
            {
              "system": "http://snomed.info/sct",
              "code": "320567001",
              "display": "Budesonide 200micrograms/dose dry powder inhaler"
            }
          ]
        },
        "dispenseRequest": {
          "quantity": {
            "value": 200,
            "unit": "dose",
            "system": "http://snomed.info/sct",
            "code": "3317411000001100"
          },
          "performer": {
            "reference": "urn:uuid:15aa7fc0-83a2-44ff-9fb6-c9afff3fd181"
          }
        },
        "authoredOn": "2020-06-10T12:06:00.000Z",
        "dosageInstruction": [
          {
            "text": "ONE puff to be inhaled TWICE a day"
          }
        ],
        "subject": {
          "reference": "urn:uuid:b96806f2-0e43-4046-30f3-bd444965afb3"
        },
        "requester": {
          "reference": "urn:uuid:dbaa616b-e23c-4d53-0f82-b2d178db79ca"
        },
        "recorder": {
          "reference": "urn:uuid:dbaa616b-e23c-4d53-0f82-b2d178db79ca"
        }
      },
      "fullUrl": "urn:uuid:A7B86F8D-1D8B-FC28-E050-D20AE3A215F0"
    },
    {
      "resource": {
        "resourceType": "MedicationRequest",
        "id": "A7B86F8D-1D54-FC28-E050-D20AE3A215F0",
        "groupIdentifier": {
          "extension": [
            {
              "url": "https://fhir.nhs.uk/R4/StructureDefinition/Extension-eps-parentPrescriptionId",
              "valueIdentifier": {
                "system": "https://fhir.nhs.uk/Id/prescription-parent-id",
                "value": "A7B86F8D-1CF2-FC28-E050-D20AE3A215F0"
              }
            }
          ],
          "system": "https://fhir.nhs.uk/Id/prescription-short-form",
          "value": "76787C-C81007-00001G"
        },
        "category": [
          {
            "coding": [
              {
                "system": "urn:oid:2.16.840.1.113883.2.1.3.2.4.17.25",
                "code": "0101"
              }
            ]
          }
        ],
        "status": "active",
        "intent": "order",
        "medicationCodeableConcept": {
          "coding": [
            {
              "system": "http://snomed.info/sct",
              "code": "330286001",
              "display": "Chloramphenicol 0.5% eye drops"
            }
          ]
        },
        "dispenseRequest": {
          "quantity": {
            "value": 10,
            "unit": "ml",
            "system": "http://snomed.info/sct",
            "code": "258773002"
          },
          "performer": {
            "reference": "urn:uuid:15aa7fc0-83a2-44ff-9fb6-c9afff3fd181"
          }
        },
        "authoredOn": "2020-06-10T12:06:00.000Z",
        "dosageInstruction": [
          {
            "text": "Put ONE drop into the LEFT eye as directed"
          }
        ],
        "subject": {
          "reference": "urn:uuid:b96806f2-0e43-4046-30f3-bd444965afb3"
        },
        "requester": {
          "reference": "urn:uuid:dbaa616b-e23c-4d53-0f82-b2d178db79ca"
        },
        "recorder": {
          "reference": "urn:uuid:dbaa616b-e23c-4d53-0f82-b2d178db79ca"
        }
      },
      "fullUrl": "urn:uuid:A7B86F8D-1D90-FC28-E050-D20AE3A215F0"
    },
    {
      "resource": {
        "resourceType": "Patient",
        "id": "b96806f2-0e43-4046-30f3-bd444965afb3",
        "identifier": [
          {
            "system": "https://fhir.nhs.uk/Id/nhs-number",
            "value": "9453740578"
          }
        ],
        "gender": "unknown",
        "birthDate": "1973-05-25",
        "name": [
          {
            "use": "official",
            "family": "AWAN",
            "given": [
              "LAYNE"
            ],
            "prefix": [
              "MR"
            ]
          }
        ],
        "address": [
          {
            "use": "home",
            "type": "both",
            "line": [
              "13 RADBOURNE STREET"
            ],
            "city": "DERBY",
            "postalCode": "DE22 3HD"
          }
        ],
        "generalPractitioner": [{
          "reference": "urn:uuid:9b4c1a77-cccc-418a-b835-4112fbcb14f3"
        }]
      },
      "fullUrl": "urn:uuid:b96806f2-0e43-4046-30f3-bd444965afb3"
    },
    {
      "resource": {
        "resourceType": "PractitionerRole",
        "id": "dbaa616b-e23c-4d53-0f82-b2d178db79ca",
        "practitioner": {
          "reference": "urn:uuid:d4b569e7-ccf6-4bb2-029b-34b6f3e82acf"
        },
        "organization": {
          "reference": "urn:uuid:b65dd3a2-9551-45a3-3e9d-342f8de14d8f"
        }
      },
      "fullUrl": "urn:uuid:dbaa616b-e23c-4d53-0f82-b2d178db79ca"
    },
    {
      "resource": {
        "resourceType": "PractitionerRole",
        "id": "9b4c1a77-cccc-418a-b835-4112fbcb14f3",
        "practitioner": {
          "reference": "urn:uuid:4d2df25e-a6d3-4200-a9fa-6611be03e2a6"
        },
        "organization": {
          "reference": "urn:uuid:b65dd3a2-9551-45a3-3e9d-342f8de14d8f"
        }
      },
      "fullUrl": "urn:uuid:9b4c1a77-cccc-418a-b835-4112fbcb14f3"
    },
    {
      "resource": {
        "resourceType": "Practitioner",
        "id": "d4b569e7-ccf6-4bb2-029b-34b6f3e82acf",
        "identifier": [
          {
            "system": "https://fhir.nhs.uk/Id/sds-user-id",
            "value": "8412511"
          },
          {
            "system": "https://fhir.nhs.uk/Id/sds-job-role-id",
            "value": "R0260"
          },
          {
            "system": "https://fhir.nhs.uk/Id/sds-role-profile-id",
            "value": "100109391987"
          }
        ],
        "name": [
          {
            "use": "official",
            "family": "MCQUADE",
            "given": [
              "PEPIN"
            ]
          }
        ],
        "telecom": [
          {
            "system": "phone",
            "value": "tel:01512631737",
            "use": "work"
          }
        ]
      },
      "fullUrl": "urn:uuid:d4b569e7-ccf6-4bb2-029b-34b6f3e82acf"
    },
    {
      "resource": {
        "resourceType": "Practitioner",
        "id": "4d2df25e-a6d3-4200-a9fa-6611be03e2a6",
        "identifier": [
          {
            "system": "https://fhir.nhs.uk/Id/sds-user-id",
            "value": "981055"
          },
          {
            "system": "https://fhir.nhs.uk/Id/sds-job-role-id",
            "value": "R0260"
          },
          {
            "system": "https://fhir.nhs.uk/Id/sds-role-profile-id",
            "value": "100104917989"
          }
        ],
        "name": [
          {
            "use": "official",
            "family": "AITCHISON",
            "given": [
              "PAVLOU"
            ]
          }
        ],
        "telecom": [
          {
            "system": "phone",
            "value": "tel:01512631737",
            "use": "work"
          }
        ]
      },
      "fullUrl": "urn:uuid:4d2df25e-a6d3-4200-a9fa-6611be03e2a6"
    },
    {
      "resource": {
        "resourceType": "Organization",
        "id": "b65dd3a2-9551-45a3-3e9d-342f8de14d8f",
        "identifier": [
          {
            "system": "https://fhir.nhs.uk/Id/ods-organization-code",
            "value": "C81007"
          }
        ],
        "type": [
          {
            "coding": [
              {
                "system": "urn:oid:2.16.840.1.113883.2.1.3.2.4.17.94",
                "code": "001",
                "display": "General Medical Practice"
              }
            ]
          }
        ],
        "name": "VERNON STREET MEDICAL CTR",
        "telecom": [
          {
            "system": "phone",
            "value": "tel:01512631737",
            "use": "work"
          }
        ],
        "address": [
          {
            "use": "work",
            "type": "both",
            "line": [
              "13 VERNON STREET"
            ],
            "city": "DERBY",
            "district": "DERBYSHIRE",
            "postalCode": "DE1 1FW"
          }
        ],
        "partOf": {
          "reference": "urn:uuid:cc850777-b73f-43cd-23f8-a41a7f1e8459"
        }
      },
      "fullUrl": "urn:uuid:b65dd3a2-9551-45a3-3e9d-342f8de14d8f"
    },
    {
      "resource": {
        "resourceType": "Organization",
        "id": "cc850777-b73f-43cd-23f8-a41a7f1e8459",
        "identifier": [
          {
            "system": "https://fhir.nhs.uk/Id/ods-organization-code",
            "value": "5EX"
          }
        ],
        "type": [
          {
            "coding": [
              {
                "system": "urn:oid:2.16.840.1.113883.2.1.3.2.4.17.94",
                "code": "005",
                "display": "Primary Care Trust"
              }
            ]
          }
        ],
        "name": "GREATER DERBY PCT"
      },
      "fullUrl": "urn:uuid:cc850777-b73f-43cd-23f8-a41a7f1e8459"
    },
    {
      "resource": {
        "resourceType": "Organization",
        "id": "15aa7fc0-83a2-44ff-9fb6-c9afff3fd181",
        "identifier": [
          {
            "system": "https://fhir.nhs.uk/Id/ods-organization-code",
            "value": "FA553"
          }
        ]
      },
      "fullUrl": "urn:uuid:15aa7fc0-83a2-44ff-9fb6-c9afff3fd181"
    }
  ]
}
