{
  "resourceType": "Bundle",
  "id": "9C7635DA-DE6A-38CE-B790-163048F0D390",
  "identifier": {
    "system": "https://tools.ietf.org/html/rfc4122",
    "value": "A7B86F8D-1DAE-FC28-E050-D20AE3A215F0"
  },
  "type": "message",
  "entry": [
    {
      "resource": {
        "resourceType": "MessageHeader",
        "id": "1E21D133-B39B-4C81-B10F-FCE9B4570375",
        "eventCoding": {
          "system": "https://fhir.nhs.uk/R4/CodeSystem/message-event",
          "code": "prescription-order",
          "display": "Prescription Order"
        },
        "sender": {
          "reference": "urn:uuid:DBAA616B-E23C-4D53-0F82-B2D178DB79CA",
          "display": "PEPIN MCQUADE"
        },
        "source": {
          "name": "PAS",
          "endpoint": "https://fhir.mynhstrust.nhs.uk/R4"
        },
        "focus": [
          {
            "reference": "urn:uuid:28828C55-8FA7-42D7-916F-FCF076E0C10E"
          },
          {
            "reference": "urn:uuid:A7B86F8D-1D81-FC28-E050-D20AE3A215F0"
          },
          {
            "reference": "urn:uuid:A7B86F8D-1D86-FC28-E050-D20AE3A215F0"
          },
          {
            "reference": "urn:uuid:A7B86F8D-1D8B-FC28-E050-D20AE3A215F0"
          },
          {
            "reference": "urn:uuid:A7B86F8D-1D90-FC28-E050-D20AE3A215F0"
          },
          {
            "reference": "urn:uuid:B96806F2-0E43-4046-30F3-BD444965AFB3"
          },
          {
            "reference": "urn:uuid:DBAA616B-E23C-4D53-0F82-B2D178DB79CA"
          },
          {
            "reference": "urn:uuid:9B4C1A77-CCCC-418A-B835-4112FBCB14F3"
          },
          {
            "reference": "urn:uuid:D4B569E7-CCF6-4BB2-029B-34B6F3E82ACF"
          },
          {
            "reference": "urn:uuid:4D2DF25E-A6D3-4200-A9FA-6611BE03E2A6"
          },
          {
            "reference": "urn:uuid:B65DD3A2-9551-45A3-3E9D-342F8DE14D8F"
          },
          {
            "reference": "urn:uuid:CC850777-B73F-43CD-23F8-A41A7F1E8459"
          },
          {
            "reference": "urn:uuid:15AA7FC0-83A2-44FF-9FB6-C9AFFF3FD181"
          }
        ]
      },
      "fullUrl": "urn:uuid:1E21D133-B39B-4C81-B10F-FCE9B4570375"
    },
    {
      "fullUrl": "urn:uuid:28828C55-8FA7-42D7-916F-FCF076E0C10E",
      "resource": {
        "resourceType": "Provenance",
        "id": "28828C55-8FA7-42D7-916F-FCF076E0C10E",
        "target": [
          {
            "reference": "urn:uuid:A7B86F8D-1D45-FC28-E050-D20AE3A215F0"
          },
          {
            "reference": "urn:uuid:A7B86F8D-1D4A-FC28-E050-D20AE3A215F0"
          },
          {
            "reference": "urn:uuid:A7B86F8D-1D4F-FC28-E050-D20AE3A215F0"
          },
          {
            "reference": "urn:uuid:A7B86F8D-1D54-FC28-E050-D20AE3A215F0"
          },
          {
            "reference": "urn:uuid:B96806F2-0E43-4046-30F3-BD444965AFB3"
          },
          {
            "reference": "urn:uuid:DBAA616B-E23C-4D53-0F82-B2D178DB79CA"
          },
          {
            "reference": "urn:uuid:9B4C1A77-CCCC-418A-B835-4112FBCB14F3"
          },
          {
            "reference": "urn:uuid:D4B569E7-CCF6-4BB2-029B-34B6F3E82ACF"
          },
          {
            "reference": "urn:uuid:4D2DF25E-A6D3-4200-A9FA-6611BE03E2A6"
          },
          {
            "reference": "urn:uuid:B65DD3A2-9551-45A3-3E9D-342F8DE14D8F"
          },
          {
            "reference": "urn:uuid:CC850777-B73F-43CD-23F8-A41A7F1E8459"
          },
          {
            "reference": "urn:uuid:15AA7FC0-83A2-44FF-9FB6-C9AFFF3FD181"
          }
        ],
        "recorded": "2008-02-27T11:38:00+00:00",
        "agent": [
          {
            "who": {
              "reference": "urn:uuid:DBAA616B-E23C-4D53-0F82-B2D178DB79CA"
            }
          }
        ],
        "signature": [
          {
            "type": [
              {
                "system": "urn:iso-astm:E1762-95:2013",
                "code": "1.2.840.10065.1.12.1.1"
              }
            ],
            "when": "2008-02-27T11:38:00+00:00",
            "who": {
              "reference": "urn:uuid:DBAA616B-E23C-4D53-0F82-B2D178DB79CA"
            },
            "data": ""
          }
        ]
      }
    },
    {
      "resource": {
        "resourceType": "MedicationRequest",
        "id": "A7B86F8D-1D45-FC28-E050-D20AE3A215F0",
        "extension": [
          {
            "url": "https://fhir.nhs.uk/R4/StructureDefinition/Extension-prescriptionType",
            "valueCoding": {
              "system": "https://fhir.nhs.uk/R4/CodeSystem/prescription-type",
              "code": "0101"
            }
          },
          {
            "url": "https://fhir.nhs.uk/R4/StructureDefinition/Extension-DM-ResponsiblePractitioner",
            "valueReference": {
              "reference": "urn:uuid:9B4C1A77-CCCC-418A-B835-4112FBCB14F3"
            }
          }
        ],
        "identifier": [
          {
            "system": "https://fhir.nhs.uk/Id/prescription-order-item-number",
            "value": "A7B86F8D-1D45-FC28-E050-D20AE3A215F0"
          }
        ],
        "groupIdentifier": {
          "extension": [
            {
              "url": "https://fhir.nhs.uk/R4/StructureDefinition/Extension-PrescriptionId",
              "valueIdentifier": {
                "system": "https://fhir.nhs.uk/Id/prescription-parent-id",
                "value": "A7B86F8D-1CF2-FC28-E050-D20AE3A215F0"
              }
            }
          ],
          "system": "https://fhir.nhs.uk/Id/prescription-short-form",
          "value": "76787C-C81007-00001G"
        },
        "category": [
          {
            "coding": [
              {
                "system": "urn:oid:2.16.840.1.113883.2.1.3.2.4.17.25",
                "code": "0101"
              }
            ]
          }
        ],
        "status": "active",
        "intent": "order",
        "medicationCodeableConcept": {
          "coding": [
            {
              "system": "http://snomed.info/sct",
              "code": "323888003",
              "display": "Cefalexin 250mg/5ml oral suspension"
            }
          ]
        },
        "dispenseRequest": {
          "quantity": {
            "value": 100,
            "unit": "ml",
            "system": "http://snomed.info/sct",
            "code": "258773002"
          },
          "performer": {
            "reference": "urn:uuid:15AA7FC0-83A2-44FF-9FB6-C9AFFF3FD181"
          }
        },
        "authoredOn": "2020-06-10T12:06:00.000Z",
        "courseOfTherapyType": {
          "coding": [
            {
              "system": "https://fhir.nhs.uk/R4/CodeSystem/UKCore-PrescriptionType",
              "code": "acute",
              "display": "Acute"
            }
          ]
        },
        "dosageInstruction": [
          {
            "text": "One 5ml spoonful to be taken every SIX hours"
          }
        ],
        "subject": {
          "reference": "urn:uuid:B96806F2-0E43-4046-30F3-BD444965AFB3"
        },
        "requester": {
          "reference": "urn:uuid:DBAA616B-E23C-4D53-0F82-B2D178DB79CA"
        },
        "recorder": {
          "reference": "urn:uuid:DBAA616B-E23C-4D53-0F82-B2D178DB79CA"
        }
      },
      "fullUrl": "urn:uuid:A7B86F8D-1D81-FC28-E050-D20AE3A215F0"
    },
    {
      "resource": {
        "resourceType": "MedicationRequest",
        "id": "A7B86F8D-1D4A-FC28-E050-D20AE3A215F0",
        "extension": [
          {
            "url": "https://fhir.nhs.uk/R4/StructureDefinition/Extension-prescriptionType",
            "valueCoding": {
              "system": "https://fhir.nhs.uk/R4/CodeSystem/prescription-type",
              "code": "0101"
            }
          },
          {
            "url": "https://fhir.nhs.uk/R4/StructureDefinition/Extension-DM-ResponsiblePractitioner",
            "valueReference": {
              "reference": "urn:uuid:9B4C1A77-CCCC-418A-B835-4112FBCB14F3"
            }
          }
        ],
        "identifier": [
          {
            "system": "https://fhir.nhs.uk/Id/prescription-order-item-number",
            "value": "A7B86F8D-1D4A-FC28-E050-D20AE3A215F0"
          }
        ],
        "groupIdentifier": {
          "extension": [
            {
              "url": "https://fhir.nhs.uk/R4/StructureDefinition/Extension-PrescriptionId",
              "valueIdentifier": {
                "system": "https://fhir.nhs.uk/Id/prescription-parent-id",
                "value": "A7B86F8D-1CF2-FC28-E050-D20AE3A215F0"
              }
            }
          ],
          "system": "https://fhir.nhs.uk/Id/prescription-short-form",
          "value": "76787C-C81007-00001G"
        },
        "category": [
          {
            "coding": [
              {
                "system": "urn:oid:2.16.840.1.113883.2.1.3.2.4.17.25",
                "code": "0101"
              }
            ]
          }
        ],
        "status": "active",
        "intent": "order",
        "medicationCodeableConcept": {
          "coding": [
            {
              "system": "http://snomed.info/sct",
              "code": "374372000",
              "display": "Betamethasone valerate 0.1% cream"
            }
          ]
        },
        "dispenseRequest": {
          "quantity": {
            "value": 100,
            "unit": "gram",
            "system": "http://snomed.info/sct",
            "code": "258682000"
          },
          "performer": {
            "reference": "urn:uuid:15AA7FC0-83A2-44FF-9FB6-C9AFFF3FD181"
          }
        },
        "authoredOn": "2020-06-10T12:06:00.000Z",
        "courseOfTherapyType": {
          "coding": [
            {
              "system": "https://fhir.nhs.uk/R4/CodeSystem/UKCore-PrescriptionType",
              "code": "acute",
              "display": "Acute"
            }
          ]
        },
        "dosageInstruction": [
          {
            "text": "Apply sparingly to the affected area"
          }
        ],
        "subject": {
          "reference": "urn:uuid:B96806F2-0E43-4046-30F3-BD444965AFB3"
        },
        "requester": {
          "reference": "urn:uuid:DBAA616B-E23C-4D53-0F82-B2D178DB79CA"
        },
        "recorder": {
          "reference": "urn:uuid:DBAA616B-E23C-4D53-0F82-B2D178DB79CA"
        }
      },
      "fullUrl": "urn:uuid:A7B86F8D-1D86-FC28-E050-D20AE3A215F0"
    },
    {
      "resource": {
        "resourceType": "MedicationRequest",
        "id": "A7B86F8D-1D4F-FC28-E050-D20AE3A215F0",
        "extension": [
          {
            "url": "https://fhir.nhs.uk/R4/StructureDefinition/Extension-prescriptionType",
            "valueCoding": {
              "system": "https://fhir.nhs.uk/R4/CodeSystem/prescription-type",
              "code": "0101"
            }
          },
          {
            "url": "https://fhir.nhs.uk/R4/StructureDefinition/Extension-DM-ResponsiblePractitioner",
            "valueReference": {
              "reference": "urn:uuid:9B4C1A77-CCCC-418A-B835-4112FBCB14F3"
            }
          }
        ],
        "identifier": [
          {
            "system": "https://fhir.nhs.uk/Id/prescription-order-item-number",
            "value": "A7B86F8D-1D4F-FC28-E050-D20AE3A215F0"
          }
        ],
        "groupIdentifier": {
          "extension": [
            {
              "url": "https://fhir.nhs.uk/R4/StructureDefinition/Extension-PrescriptionId",
              "valueIdentifier": {
                "system": "https://fhir.nhs.uk/Id/prescription-parent-id",
                "value": "A7B86F8D-1CF2-FC28-E050-D20AE3A215F0"
              }
            }
          ],
          "system": "https://fhir.nhs.uk/Id/prescription-short-form",
          "value": "76787C-C81007-00001G"
        },
        "category": [
          {
            "coding": [
              {
                "system": "urn:oid:2.16.840.1.113883.2.1.3.2.4.17.25",
                "code": "0101"
              }
            ]
          }
        ],
        "status": "active",
        "intent": "order",
        "medicationCodeableConcept": {
          "coding": [
            {
              "system": "http://snomed.info/sct",
              "code": "320567001",
              "display": "Budesonide 200micrograms/dose dry powder inhaler"
            }
          ]
        },
        "dispenseRequest": {
          "quantity": {
            "value": 200,
            "unit": "dose",
            "system": "http://snomed.info/sct",
            "code": "3317411000001100"
          },
          "performer": {
            "reference": "urn:uuid:15AA7FC0-83A2-44FF-9FB6-C9AFFF3FD181"
          }
        },
        "authoredOn": "2020-06-10T12:06:00.000Z",
        "courseOfTherapyType": {
          "coding": [
            {
              "system": "https://fhir.nhs.uk/R4/CodeSystem/UKCore-PrescriptionType",
              "code": "acute",
              "display": "Acute"
            }
          ]
        },
        "dosageInstruction": [
          {
            "text": "ONE puff to be inhaled TWICE a day"
          }
        ],
        "subject": {
          "reference": "urn:uuid:B96806F2-0E43-4046-30F3-BD444965AFB3"
        },
        "requester": {
          "reference": "urn:uuid:DBAA616B-E23C-4D53-0F82-B2D178DB79CA"
        },
        "recorder": {
          "reference": "urn:uuid:DBAA616B-E23C-4D53-0F82-B2D178DB79CA"
        }
      },
      "fullUrl": "urn:uuid:A7B86F8D-1D8B-FC28-E050-D20AE3A215F0"
    },
    {
      "resource": {
        "resourceType": "MedicationRequest",
        "id": "A7B86F8D-1D54-FC28-E050-D20AE3A215F0",
        "extension": [
          {
            "url": "https://fhir.nhs.uk/R4/StructureDefinition/Extension-prescriptionType",
            "valueCoding": {
              "system": "https://fhir.nhs.uk/R4/CodeSystem/prescription-type",
              "code": "0101"
            }
          },
          {
            "url": "https://fhir.nhs.uk/R4/StructureDefinition/Extension-DM-ResponsiblePractitioner",
            "valueReference": {
              "reference": "urn:uuid:9B4C1A77-CCCC-418A-B835-4112FBCB14F3"
            }
          }
        ],
        "identifier": [
          {
            "system": "https://fhir.nhs.uk/Id/prescription-order-item-number",
            "value": "A7B86F8D-1D54-FC28-E050-D20AE3A215F0"
          }
        ],
        "groupIdentifier": {
          "extension": [
            {
              "url": "https://fhir.nhs.uk/R4/StructureDefinition/Extension-PrescriptionId",
              "valueIdentifier": {
                "system": "https://fhir.nhs.uk/Id/prescription-parent-id",
                "value": "A7B86F8D-1CF2-FC28-E050-D20AE3A215F0"
              }
            }
          ],
          "system": "https://fhir.nhs.uk/Id/prescription-short-form",
          "value": "76787C-C81007-00001G"
        },
        "category": [
          {
            "coding": [
              {
                "system": "urn:oid:2.16.840.1.113883.2.1.3.2.4.17.25",
                "code": "0101"
              }
            ]
          }
        ],
        "status": "active",
        "intent": "order",
        "medicationCodeableConcept": {
          "coding": [
            {
              "system": "http://snomed.info/sct",
              "code": "330286001",
              "display": "Chloramphenicol 0.5% eye drops"
            }
          ]
        },
        "dispenseRequest": {
          "quantity": {
            "value": 10,
            "unit": "ml",
            "system": "http://snomed.info/sct",
            "code": "258773002"
          },
          "performer": {
            "reference": "urn:uuid:15AA7FC0-83A2-44FF-9FB6-C9AFFF3FD181"
          }
        },
        "authoredOn": "2020-06-10T12:06:00.000Z",
        "courseOfTherapyType": {
          "coding": [
            {
              "system": "https://fhir.nhs.uk/R4/CodeSystem/UKCore-PrescriptionType",
              "code": "acute",
              "display": "Acute"
            }
          ]
        },
        "dosageInstruction": [
          {
            "text": "Put ONE drop into the LEFT eye as directed"
          }
        ],
        "subject": {
          "reference": "urn:uuid:B96806F2-0E43-4046-30F3-BD444965AFB3"
        },
        "requester": {
          "reference": "urn:uuid:DBAA616B-E23C-4D53-0F82-B2D178DB79CA"
        },
        "recorder": {
          "reference": "urn:uuid:DBAA616B-E23C-4D53-0F82-B2D178DB79CA"
        }
      },
      "fullUrl": "urn:uuid:A7B86F8D-1D90-FC28-E050-D20AE3A215F0"
    },
    {
      "resource": {
        "resourceType": "Patient",
        "id": "B96806F2-0E43-4046-30F3-BD444965AFB3",
        "managingOrganization": {
          "identifier": {
            "value": "C81007",
            "system": "https://fhir.nhs.uk/Id/ods-organization-code"
          }
        },
        "identifier": [
          {
            "system": "https://fhir.nhs.uk/Id/nhs-number",
            "value": "9453740578"
          }
        ],
        "gender": "unknown",
        "birthDate": "1973-05-25",
        "deceasedDateTime": "2015-02-07T13:28:17+00:00",
        "name": [
          {
            "use": "official",
            "family": "AWAN",
            "given": [
              "LAYNE"
            ],
            "prefix": [
              "MR"
            ]
          }
        ],
        "address": [
          {
            "use": "home",
            "type": "both",
            "line": [
              "13 RADBOURNE STREET"
            ],
            "city": "DERBY",
            "postalCode": "DE22 3HD"
          }
        ]
      },
      "fullUrl": "urn:uuid:B96806F2-0E43-4046-30F3-BD444965AFB3"
    },
    {
      "resource": {
        "resourceType": "PractitionerRole",
        "id": "DBAA616B-E23C-4D53-0F82-B2D178DB79CA",
        "practitioner": {
          "reference": "urn:uuid:D4B569E7-CCF6-4BB2-029B-34B6F3E82ACF"
        },
        "organization": {
          "reference": "urn:uuid:B65DD3A2-9551-45A3-3E9D-342F8DE14D8F"
        }
      },
      "fullUrl": "urn:uuid:DBAA616B-E23C-4D53-0F82-B2D178DB79CA"
    },
    {
      "resource": {
        "resourceType": "PractitionerRole",
        "id": "9B4C1A77-CCCC-418A-B835-4112FBCB14F3",
        "practitioner": {
          "reference": "urn:uuid:4D2DF25E-A6D3-4200-A9FA-6611BE03E2A6"
        },
        "organization": {
          "reference": "urn:uuid:B65DD3A2-9551-45A3-3E9D-342F8DE14D8F"
        }
      },
      "fullUrl": "urn:uuid:9B4C1A77-CCCC-418A-B835-4112FBCB14F3"
    },
    {
      "resource": {
        "resourceType": "Practitioner",
        "id": "D4B569E7-CCF6-4BB2-029B-34B6F3E82ACF",
        "identifier": [
          {
            "system": "https://fhir.nhs.uk/Id/sds-user-id",
            "value": "8412511"
          },
          {
            "system": "https://fhir.nhs.uk/Id/sds-job-role-id",
            "value": "R0260"
          },
          {
            "system": "https://fhir.nhs.uk/Id/sds-role-profile-id",
            "value": "100109391987"
          }
        ],
        "name": [
          {
            "use": "official",
            "family": "MCQUADE",
            "given": [
              "PEPIN"
            ]
          }
        ],
        "telecom": [
          {
            "system": "phone",
            "value": "tel:01512631737",
            "use": "work"
          }
        ]
      },
      "fullUrl": "urn:uuid:D4B569E7-CCF6-4BB2-029B-34B6F3E82ACF"
    },
    {
      "resource": {
        "resourceType": "Practitioner",
        "id": "4D2DF25E-A6D3-4200-A9FA-6611BE03E2A6",
        "identifier": [
          {
            "system": "https://fhir.nhs.uk/Id/sds-user-id",
            "value": "981055"
          },
          {
            "system": "https://fhir.nhs.uk/Id/sds-job-role-id",
            "value": "R0260"
          },
          {
            "system": "https://fhir.nhs.uk/Id/sds-role-profile-id",
            "value": "100104917989"
          }
        ],
        "name": [
          {
            "use": "official",
            "family": "AITCHISON",
            "given": [
              "PAVLOU"
            ]
          }
        ],
        "telecom": [
          {
            "system": "phone",
            "value": "tel:01512631737",
            "use": "work"
          }
        ]
      },
      "fullUrl": "urn:uuid:4D2DF25E-A6D3-4200-A9FA-6611BE03E2A6"
    },
    {
      "resource": {
        "resourceType": "Organization",
        "id": "B65DD3A2-9551-45A3-3E9D-342F8DE14D8F",
        "identifier": [
          {
            "system": "https://fhir.nhs.uk/Id/ods-organization-code",
            "value": "C81007"
          }
        ],
        "type": [
          {
            "coding": [
              {
                "system": "urn:oid:2.16.840.1.113883.2.1.3.2.4.17.94",
                "code": "001",
                "display": "General Medical Practice"
              }
            ]
          }
        ],
        "name": "VERNON STREET MEDICAL CTR",
        "telecom": [
          {
            "system": "phone",
            "value": "tel:01512631737",
            "use": "work"
          }
        ],
        "address": [
          {
            "use": "work",
            "type": "both",
            "line": [
              "13 VERNON STREET"
            ],
            "city": "DERBY",
            "district": "DERBYSHIRE",
            "postalCode": "DE1 1FW"
          }
        ],
        "partOf": {
          "reference": "urn:uuid:CC850777-B73F-43CD-23F8-A41A7F1E8459"
        }
      },
      "fullUrl": "urn:uuid:B65DD3A2-9551-45A3-3E9D-342F8DE14D8F"
    },
    {
      "resource": {
        "resourceType": "Organization",
        "id": "CC850777-B73F-43CD-23F8-A41A7F1E8459",
        "identifier": [
          {
            "system": "https://fhir.nhs.uk/Id/ods-organization-code",
            "value": "5EX"
          }
        ],
        "type": [
          {
            "coding": [
              {
                "system": "urn:oid:2.16.840.1.113883.2.1.3.2.4.17.94",
                "code": "005",
                "display": "Primary Care Trust"
              }
            ]
          }
        ],
        "name": "GREATER DERBY PCT"
      },
      "fullUrl": "urn:uuid:CC850777-B73F-43CD-23F8-A41A7F1E8459"
    },
    {
      "resource": {
        "resourceType": "Organization",
        "id": "15AA7FC0-83A2-44FF-9FB6-C9AFFF3FD181",
        "identifier": [
          {
            "system": "https://fhir.nhs.uk/Id/ods-organization-code",
            "value": "FA553"
          }
        ]
      },
      "fullUrl": "urn:uuid:15AA7FC0-83A2-44FF-9FB6-C9AFFF3FD181"
    }
  ]
}
