{
  "resourceType": "Task",
  "id": "1de658b5-e4e9-4cb2-b748-4f0db3dbd0f1",
  "identifier": [
    {
      "system": "https://tools.ietf.org/html/rfc4122",
      "value": "929ae85c-c448-4fd3-8141-9c9a97cb553f"
    }
  ],
  "extension": [
    {
      "url": "https://fhir.nhs.uk/StructureDefinition/Extension-EPS-RepeatInformation",
      "extension": [
        {
          "url": "numberOfRepeatsAllowed",
          "valueInteger": 5
        },
        {
          "url": "numberOfRepeatsIssued",
          "valueInteger": 2
        }
      ]
    }
  ],
  "status": "rejected",
  "intent": "order",
  "groupIdentifier": {
    "system": "https://fhir.nhs.uk/Id/prescription-order-number",
    "value": "269724-A83008-7EFE69"
  },
  "code": {
    "coding": [
      {
        "system": "http://hl7.org/fhir/CodeSystem/task-code",
        "code": "change",
        "display": "Change the focal resource"
      }
    ]
  },
  "contained": [
    {
      "resourceType": "PractitionerRole",
      "id": "requester",
      "identifier": [
        {
          "system": "https://fhir.nhs.uk/Id/sds-role-profile-id",
          "value": "641555508105"
        }
      ],
      "practitioner": {
        "identifier": {
          "system": "https://fhir.nhs.uk/Id/sds-user-id",
          "value": "3415870201"
        },
        "display": "Ms Lottie Maifeld"
      },
      "organization": {
        "reference": "#organisation"
      },
      "code": [
        {
          "coding": [
            {
              "system": "https://fhir.hl7.org.uk/CodeSystem/UKCore-SDSJobRoleName",
              "code": "R8000",
              "display": "Clinical Practitioner Access Role"
            }
          ]
        }
      ],
      "telecom": [
        {
          "system": "phone",
          "use": "work",
          "value": "01234567890"
        }
      ]
    },
    {
      "resourceType": "Organization",
      "id": "organisation",
      "identifier": [
        {
          "system": "https://fhir.nhs.uk/Id/ods-organization-code",
          "value": "VNE51"
        }
      ],
      "address": [
        {
          "city": "West Yorkshire",
          "use": "work",
          "line": [
            "17 Austhorpe Road",
            "Crossgates",
            "Leeds"
          ],
          "postalCode": "LS15 8BA"
        }
      ],
      "active": true,
      "type": [
        {
          "coding": [
            {
              "system": "https://fhir.nhs.uk/CodeSystem/organisation-role",
              "code": "182",
              "display": "PHARMACY"
            }
          ]
        }
      ],
      "name": "The Simple Pharmacy",
      "telecom": [
        {
          "system": "phone",
          "use": "work",
          "value": "0113 3180277"
        }
      ]
    }
  ],
   "focus": {
    "type": "Bundle",
    "identifier": {
      "system": "https://tools.ietf.org/html/rfc4122",
      "value": "56e95e34-09f8-4ade-81f6-df922f0d7bec"
    }
  },
  "for": {
    "identifier": {
      "system": "https://fhir.nhs.uk/Id/nhs-number",
      "value": "9999999999"
    }
  },
  "authoredOn": "2022-11-26T16:15:00+00:00",
  "owner": {
    "identifier": {
      "system": "https://fhir.nhs.uk/Id/ods-organization-code",
      "value": "VNFKT"
    }
  },
  "statusReason": {
    "coding": [
      {
        "system": "https://fhir.nhs.uk/CodeSystem/EPS-task-dispense-return-status-reason",
        "code": "0001",
        "display": "Patient non-attendance"
      }
    ]
  },
  "requester": {
    "reference": "#requester"
  }
}