{
  "resourceType": "Bundle",
  "id": "f68cea42-e8a0-d799-c874-163048f0d390",
  "identifier": {
    "system": "https://tools.ietf.org/html/rfc4122",
    "value": "a7b86f8d-1dbd-fc28-e050-d20ae3a215f0"
  },
  "type": "message",
  "entry": [
    {
      "resource": {
        "resourceType": "MessageHeader",
        "id": "859f8240-d02f-4ea3-8f7f-0aed7b4d7d4e",
        "eventCoding": {
          "system": "https://fhir.nhs.uk/CodeSystem/message-event",
          "code": "prescription-order",
          "display": "Prescription Order"
        },
        "sender": {
          "reference": "urn:uuid:dbaa616b-e23c-4d53-0f82-b2d178db79ca",
          "display": "ANDREW CHANDLER"
        },
        "source": {
          "name": "PAS",
          "endpoint": "https://fhir.mynhstrust.nhs.uk/R4"
        },
        "focus": [
          {
            "reference": "urn:uuid:a7b86f8d-1d81-fc28-e050-d20ae3a215f0"
          },
          {
            "reference": "urn:uuid:a7b86f8d-1d86-fc28-e050-d20ae3a215f0"
          },
          {
            "reference": "urn:uuid:a7b86f8d-1d8b-fc28-e050-d20ae3a215f0"
          },
          {
            "reference": "urn:uuid:a7b86f8d-1d90-fc28-e050-d20ae3a215f0"
          },
          {
            "reference": "urn:uuid:b96806f2-0e43-4046-30f3-bd444965afb3"
          },
          {
            "reference": "urn:uuid:dbaa616b-e23c-4d53-0f82-b2d178db79ca"
          },
          {
            "reference": "urn:uuid:d4b569e7-ccf6-4bb2-029b-34b6f3e82acf"
          },
          {
            "reference": "urn:uuid:b65dd3a2-9551-45a3-3e9d-342f8de14d8f"
          }
        ]
      },
      "fullUrl": "urn:uuid:859f8240-d02f-4ea3-8f7f-0aed7b4d7d4e"
    },
    {
      "resource": {
        "resourceType": "MedicationRequest",
        "id": "a7b86f8d-1d81-fc28-e050-d20ae3a215f0",
        "extension": [
          {
            "url": "https://fhir.nhs.uk/R4/StructureDefinition/Extension-DM-prescriptionType",
            "valueCoding": {
              "system": "https://fhir.nhs.uk/CodeSystem/prescription-type",
              "code": "0101"
            }
          },
          {
            "url": "https://fhir.nhs.uk/R4/StructureDefinition/Extension-DM-ResponsiblePractitioner",
            "valueReference": {
              "reference": "urn:uuid:dbaa616b-e23c-4d53-0f82-b2d178db79ca"
            }
          },
          {
            "url": "https://fhir.nhs.uk/R4/StructureDefinition/Extension-PrescriptionEndorsement",
            "valueCodeableConcept": {
              "coding": [
                {
                  "system": "https://fhir.nhs.uk/CodeSystem/medicationrequest-endorsement",
                  "code": "SLS",
                  "display": "Selected List Scheme"
                }
              ]
            }
          },
          {
            "url": "https://fhir.nhs.uk/R4/StructureDefinition/Extension-UKCore-MedicationRepeatInformation",
            "extension": [
              {
                "url": "numberOfRepeatPrescriptionsAllowed",
                "valueUnsignedInt": 6
              },
              {
                "url": "authorisationExpiryDate",
                "valueDateTime": "2020-12-07"
              }
            ]
          }
        ],
        "identifier": [
          {
            "system": "https://fhir.nhs.uk/Id/prescription-order-item-number",
            "value": "a7b86f8d-1d81-fc28-e050-d20ae3a215f0"
          }
        ],
        "groupIdentifier": {
          "extension": [
            {
              "url": "https://fhir.nhs.uk/R4/StructureDefinition/Extension-PrescriptionId",
              "valueIdentifier": {
                "system": "https://fhir.nhs.uk/Id/prescription",
                "value": "a7b86f8d-1d02-fc28-e050-d20ae3a215f0"
              }
            }
          ],
          "system": "https://fhir.nhs.uk/Id/prescription-order-number",
          "value": "4D62E6-D81015-07E5FD"
        },
        "status": "active",
        "intent": "order",
        "medicationCodeableConcept": {
          "coding": [
            {
              "system": "http://snomed.info/sct",
              "code": "15748611000001101",
              "display": "DermaSilk round neck shirt adult female small (Espere Healthcare Ltd)"
            }
          ]
        },
        "dispenseRequest": {
          "extension": [
            {
              "url": "https://fhir.nhs.uk/R4/StructureDefinition/Extension-performerSiteType",
              "valueCoding": {
                "system": "https://fhir.nhs.uk/CodeSystem/dispensing-site-preference",
                "code": "0004"
              }
            }
          ],
          "validityPeriod": {
            "start": "2020-06-10",
            "end": "2020-12-07"
          },
          "quantity": {
            "value": 1,
            "unit": "device",
            "system": "http://snomed.info/sct",
            "code": "3318711000001107"
          },
          "expectedSupplyDuration": {
            "value": 28,
            "unit": "days",
            "system": "http://unitsofmeasure.org",
            "code": "d"
          }
        },
        "authoredOn": "2020-06-10T12:06:00+00:00",
        "courseOfTherapyType": {
          "coding": [
            {
              "system": "https://fhir.nhs.uk/CodeSystem/medicationrequest-course-of-therapy",
              "code": "continuous-repeat-dispensing",
              "display": "Continuous long term (repeat dispensing)"
            }
          ]
        },
        "dosageInstruction": [
          {
            "text": "As Directed"
          }
        ],
        "subject": {
          "reference": "urn:uuid:b96806f2-0e43-4046-30f3-bd444965afb3"
        },
        "requester": {
          "reference": "urn:uuid:dbaa616b-e23c-4d53-0f82-b2d178db79ca"
        },
        "recorder": {
          "reference": "urn:uuid:dbaa616b-e23c-4d53-0f82-b2d178db79ca"
        },
        "substitution": {
          "allowedBoolean": false
        }
      },
      "fullUrl": "urn:uuid:a7b86f8d-1d81-fc28-e050-d20ae3a215f0"
    },
    {
      "resource": {
        "resourceType": "MedicationRequest",
        "id": "a7b86f8d-1d86-fc28-e050-d20ae3a215f0",
        "extension": [
          {
            "url": "https://fhir.nhs.uk/R4/StructureDefinition/Extension-DM-prescriptionType",
            "valueCoding": {
              "system": "https://fhir.nhs.uk/CodeSystem/prescription-type",
              "code": "0101"
            }
          },
          {
            "url": "https://fhir.nhs.uk/R4/StructureDefinition/Extension-DM-ResponsiblePractitioner",
            "valueReference": {
              "reference": "urn:uuid:dbaa616b-e23c-4d53-0f82-b2d178db79ca"
            }
          },
          {
            "url": "https://fhir.nhs.uk/R4/StructureDefinition/Extension-PrescriptionEndorsement",
            "valueCodeableConcept": {
              "coding": [
                {
                  "system": "https://fhir.nhs.uk/CodeSystem/medicationrequest-endorsement",
                  "code": "SLS",
                  "display": "Selected List Scheme"
                }
              ]
            }
          },
          {
            "url": "https://fhir.nhs.uk/R4/StructureDefinition/Extension-UKCore-MedicationRepeatInformation",
            "extension": [
              {
                "url": "numberOfRepeatPrescriptionsAllowed",
                "valueUnsignedInt": 6
              },
              {
                "url": "authorisationExpiryDate",
                "valueDateTime": "2020-12-07"
              }
            ]
          }
        ],
        "identifier": [
          {
            "system": "https://fhir.nhs.uk/Id/prescription-order-item-number",
            "value": "a7b86f8d-1d86-fc28-e050-d20ae3a215f0"
          }
        ],
        "groupIdentifier": {
          "extension": [
            {
              "url": "https://fhir.nhs.uk/R4/StructureDefinition/Extension-PrescriptionId",
              "valueIdentifier": {
                "system": "https://fhir.nhs.uk/Id/prescription",
                "value": "a7b86f8d-1d02-fc28-e050-d20ae3a215f0"
              }
            }
          ],
          "system": "https://fhir.nhs.uk/Id/prescription-order-number",
          "value": "4D62E6-D81015-07E5FD"
        },
        "status": "active",
        "intent": "order",
        "medicationCodeableConcept": {
          "coding": [
            {
              "system": "http://snomed.info/sct",
              "code": "42111000001107",
              "display": "Microgynon 30 tablets (Bayer Plc)"
            }
          ]
        },
        "dispenseRequest": {
          "extension": [
            {
              "url": "https://fhir.nhs.uk/R4/StructureDefinition/Extension-performerSiteType",
              "valueCoding": {
                "system": "https://fhir.nhs.uk/CodeSystem/dispensing-site-preference",
                "code": "0004"
              }
            }
          ],
          "validityPeriod": {
            "start": "2020-06-10",
            "end": "2020-12-07"
          },
          "quantity": {
            "value": 63,
            "unit": "tablet",
            "system": "http://snomed.info/sct",
            "code": "428673006"
          },
          "expectedSupplyDuration": {
            "value": 28,
            "unit": "days",
            "system": "http://unitsofmeasure.org",
            "code": "d"
          }
        },
        "authoredOn": "2020-06-10T12:06:00+00:00",
        "courseOfTherapyType": {
          "coding": [
            {
              "system": "https://fhir.nhs.uk/CodeSystem/medicationrequest-course-of-therapy",
              "code": "continuous-repeat-dispensing",
              "display": "Continuous long term (repeat dispensing)"
            }
          ]
        },
        "dosageInstruction": [
          {
            "text": "As Directed"
          }
        ],
        "subject": {
          "reference": "urn:uuid:b96806f2-0e43-4046-30f3-bd444965afb3"
        },
        "requester": {
          "reference": "urn:uuid:dbaa616b-e23c-4d53-0f82-b2d178db79ca"
        },
        "recorder": {
          "reference": "urn:uuid:dbaa616b-e23c-4d53-0f82-b2d178db79ca"
        },
        "substitution": {
          "allowedBoolean": false
        }
      },
      "fullUrl": "urn:uuid:a7b86f8d-1d86-fc28-e050-d20ae3a215f0"
    },
    {
      "resource": {
        "resourceType": "MedicationRequest",
        "id": "a7b86f8d-1d8b-fc28-e050-d20ae3a215f0",
        "extension": [
          {
            "url": "https://fhir.nhs.uk/R4/StructureDefinition/Extension-DM-prescriptionType",
            "valueCoding": {
              "system": "https://fhir.nhs.uk/CodeSystem/prescription-type",
              "code": "0101"
            }
          },
          {
            "url": "https://fhir.nhs.uk/R4/StructureDefinition/Extension-DM-ResponsiblePractitioner",
            "valueReference": {
              "reference": "urn:uuid:dbaa616b-e23c-4d53-0f82-b2d178db79ca"
            }
          },
          {
            "url": "https://fhir.nhs.uk/R4/StructureDefinition/Extension-PrescriptionEndorsement",
            "valueCodeableConcept": {
              "coding": [
                {
                  "system": "https://fhir.nhs.uk/CodeSystem/medicationrequest-endorsement",
                  "code": "SLS",
                  "display": "Selected List Scheme"
                }
              ]
            }
          },
          {
            "url": "https://fhir.nhs.uk/R4/StructureDefinition/Extension-UKCore-MedicationRepeatInformation",
            "extension": [
              {
                "url": "numberOfRepeatPrescriptionsAllowed",
                "valueUnsignedInt": 6
              },
              {
                "url": "authorisationExpiryDate",
                "valueDateTime": "2020-12-07"
              }
            ]
          }
        ],
        "identifier": [
          {
            "system": "https://fhir.nhs.uk/Id/prescription-order-item-number",
            "value": "a7b86f8d-1d8b-fc28-e050-d20ae3a215f0"
          }
        ],
        "groupIdentifier": {
          "extension": [
            {
              "url": "https://fhir.nhs.uk/R4/StructureDefinition/Extension-PrescriptionId",
              "valueIdentifier": {
                "system": "https://fhir.nhs.uk/Id/prescription",
                "value": "a7b86f8d-1d02-fc28-e050-d20ae3a215f0"
              }
            }
          ],
          "system": "https://fhir.nhs.uk/Id/prescription-order-number",
          "value": "4D62E6-D81015-07E5FD"
        },
        "status": "active",
        "intent": "order",
        "medicationCodeableConcept": {
          "coding": [
            {
              "system": "http://snomed.info/sct",
              "code": "7138411000001109",
              "display": "Nelaton catheter female 14Ch ZT02017182 (Unomedical Ltd)"
            }
          ]
        },
        "dispenseRequest": {
          "extension": [
            {
              "url": "https://fhir.nhs.uk/R4/StructureDefinition/Extension-performerSiteType",
              "valueCoding": {
                "system": "https://fhir.nhs.uk/CodeSystem/dispensing-site-preference",
                "code": "0004"
              }
            }
          ],
          "validityPeriod": {
            "start": "2020-06-10",
            "end": "2020-12-07"
          },
          "quantity": {
            "value": 10,
            "unit": "catheter",
            "system": "http://snomed.info/sct",
            "code": "3319911000001101"
          },
          "expectedSupplyDuration": {
            "value": 28,
            "unit": "days",
            "system": "http://unitsofmeasure.org",
            "code": "d"
          }
        },
        "authoredOn": "2020-06-10T12:06:00+00:00",
        "courseOfTherapyType": {
          "coding": [
            {
              "system": "https://fhir.nhs.uk/CodeSystem/medicationrequest-course-of-therapy",
              "code": "continuous-repeat-dispensing",
              "display": "Continuous long term (repeat dispensing)"
            }
          ]
        },
        "dosageInstruction": [
          {
            "text": "As Directed"
          }
        ],
        "subject": {
          "reference": "urn:uuid:b96806f2-0e43-4046-30f3-bd444965afb3"
        },
        "requester": {
          "reference": "urn:uuid:dbaa616b-e23c-4d53-0f82-b2d178db79ca"
        },
        "recorder": {
          "reference": "urn:uuid:dbaa616b-e23c-4d53-0f82-b2d178db79ca"
        },
        "substitution": {
          "allowedBoolean": false
        }
      },
      "fullUrl": "urn:uuid:a7b86f8d-1d8b-fc28-e050-d20ae3a215f0"
    },
    {
      "resource": {
        "resourceType": "MedicationRequest",
        "id": "a7b86f8d-1d90-fc28-e050-d20ae3a215f0",
        "extension": [
          {
            "url": "https://fhir.nhs.uk/R4/StructureDefinition/Extension-DM-prescriptionType",
            "valueCoding": {
              "system": "https://fhir.nhs.uk/CodeSystem/prescription-type",
              "code": "0101"
            }
          },
          {
            "url": "https://fhir.nhs.uk/R4/StructureDefinition/Extension-DM-ResponsiblePractitioner",
            "valueReference": {
              "reference": "urn:uuid:dbaa616b-e23c-4d53-0f82-b2d178db79ca"
            }
          },
          {
            "url": "https://fhir.nhs.uk/R4/StructureDefinition/Extension-PrescriptionEndorsement",
            "valueCodeableConcept": {
              "coding": [
                {
                  "system": "https://fhir.nhs.uk/CodeSystem/medicationrequest-endorsement",
                  "code": "SLS",
                  "display": "Selected List Scheme"
                }
              ]
            }
          },
          {
            "url": "https://fhir.nhs.uk/R4/StructureDefinition/Extension-UKCore-MedicationRepeatInformation",
            "extension": [
              {
                "url": "numberOfRepeatPrescriptionsAllowed",
                "valueUnsignedInt": 6
              },
              {
                "url": "authorisationExpiryDate",
                "valueDateTime": "2020-12-07"
              }
            ]
          }
        ],
        "identifier": [
          {
            "system": "https://fhir.nhs.uk/Id/prescription-order-item-number",
            "value": "a7b86f8d-1d90-fc28-e050-d20ae3a215f0"
          }
        ],
        "groupIdentifier": {
          "extension": [
            {
              "url": "https://fhir.nhs.uk/R4/StructureDefinition/Extension-PrescriptionId",
              "valueIdentifier": {
                "system": "https://fhir.nhs.uk/Id/prescription",
                "value": "a7b86f8d-1d02-fc28-e050-d20ae3a215f0"
              }
            }
          ],
          "system": "https://fhir.nhs.uk/Id/prescription-order-number",
          "value": "4D62E6-D81015-07E5FD"
        },
        "status": "active",
        "intent": "order",
        "medicationCodeableConcept": {
          "coding": [
            {
              "system": "http://snomed.info/sct",
              "code": "20988311000001103",
              "display": "Optifast shake oral powder 54g sachets (Flavour Not Specified)"
            }
          ]
        },
        "dispenseRequest": {
          "extension": [
            {
              "url": "https://fhir.nhs.uk/R4/StructureDefinition/Extension-performerSiteType",
              "valueCoding": {
                "system": "https://fhir.nhs.uk/CodeSystem/dispensing-site-preference",
                "code": "0004"
              }
            }
          ],
          "validityPeriod": {
            "start": "2020-06-10",
            "end": "2020-12-07"
          },
          "quantity": {
            "value": 54,
            "unit": "sachet",
            "system": "http://snomed.info/sct",
            "code": "3318911000001109"
          },
          "expectedSupplyDuration": {
            "value": 28,
            "unit": "days",
            "system": "http://unitsofmeasure.org",
            "code": "d"
          }
        },
        "authoredOn": "2020-06-10T12:06:00+00:00",
        "courseOfTherapyType": {
          "coding": [
            {
              "system": "https://fhir.nhs.uk/CodeSystem/medicationrequest-course-of-therapy",
              "code": "continuous-repeat-dispensing",
              "display": "Continuous long term (repeat dispensing)"
            }
          ]
        },
        "dosageInstruction": [
          {
            "text": "As Directed"
          }
        ],
        "subject": {
          "reference": "urn:uuid:b96806f2-0e43-4046-30f3-bd444965afb3"
        },
        "requester": {
          "reference": "urn:uuid:dbaa616b-e23c-4d53-0f82-b2d178db79ca"
        },
        "recorder": {
          "reference": "urn:uuid:dbaa616b-e23c-4d53-0f82-b2d178db79ca"
        },
        "substitution": {
          "allowedBoolean": false
        }
      },
      "fullUrl": "urn:uuid:a7b86f8d-1d90-fc28-e050-d20ae3a215f0"
    },
    {
      "resource": {
        "resourceType": "Patient",
        "id": "b96806f2-0e43-4046-30f3-bd444965afb3",
        "managingOrganization": {
          "identifier": {
            "value": "D81015",
            "system": "https://fhir.nhs.uk/Id/ods-organization-code"
          }
        },
        "generalPractitioner": [
          {
            "identifier": {
              "system": "https://fhir.nhs.uk/Id/ods-organization-code",
              "value": "D81015"
            }
          }
        ],
        "identifier": [
          {
            "system": "https://fhir.nhs.uk/Id/nhs-number",
            "value": "9453740586",
            "extension": [
              {
                "url": "https://fhir.nhs.uk/R4/StructureDefinition/Extension-UKCore-NHSNumberVerificationStatus",
                "valueCodeableConcept": {
                  "coding": [
                    {
                      "system": "https://fhir.nhs.uk/R4/CodeSystem/UKCore-NHSNumberVerificationStatus",
                      "code": "01",
                      "display": "Number present and verified"
                    }
                  ]
                }
              }
            ]
          }
        ],
        "gender": "unknown",
        "birthDate": "1977-03-27",
        "name": [
          {
            "use": "usual",
            "family": "PENSON",
            "given": [
              "HEADLEY",
              "TED"
            ],
            "prefix": [
              "MR"
            ]
          }
        ],
        "address": [
          {
            "use": "home",
            "type": "both",
            "line": [
              "10 CRECY CLOSE"
            ],
            "city": "DERBY",
            "postalCode": "DE22 3JU"
          }
        ]
      },
      "fullUrl": "urn:uuid:b96806f2-0e43-4046-30f3-bd444965afb3"
    },
    {
      "resource": {
        "resourceType": "PractitionerRole",
        "id": "dbaa616b-e23c-4d53-0f82-b2d178db79ca",
        "identifier": [
          {
            "system": "https://fhir.nhs.uk/Id/sds-role-profile-id",
            "value": "100112897984"
          },
          {
            "system": "https://fhir.hl7.org.uk/Id/nhsbsa-spurious-code",
            "value": "SP123456"
          }
        ],
        "code": [
          {
            "coding": [
              {
                "system": "https://fhir.nhs.uk/R4/CodeSystem/UKCore-SDSJobRoleName",
                "code": "R0260",
                "display": "General Medical Practitioner"
              }
            ]
          }
        ],
        "practitioner": {
          "reference": "urn:uuid:d4b569e7-ccf6-4bb2-029b-34b6f3e82acf"
        },
        "organization": {
          "reference": "urn:uuid:b65dd3a2-9551-45a3-3e9d-342f8de14d8f"
        },
        "healthcareService": [
          {
            "reference": "urn:uuid:54b0506d-49af-4245-9d40-d7d64902055e",
            "display": "SOMERSET BOWEL CANCER SCREENING CENTRE"
          }
        ],
        "telecom": [
          {
            "system": "phone",
            "value": "01234567890",
            "use": "work"
          }
        ]
      },
      "fullUrl": "urn:uuid:dbaa616b-e23c-4d53-0f82-b2d178db79ca"
    },
    {
      "resource": {
        "resourceType": "Practitioner",
        "id": "d4b569e7-ccf6-4bb2-029b-34b6f3e82acf",
        "identifier": [
          {
            "system": "https://fhir.nhs.uk/Id/sds-user-id",
            "value": "8713353"
          },
          {
            "system": "https://fhir.hl7.org.uk/Id/gmc-number",
            "value": "G6123455"
          }
        ],
        "name": [
          {
            "use": "usual",
            "family": "CHANDLER",
            "given": [
              "ANDREW"
            ]
          }
        ],
        "telecom": [
          {
            "system": "phone",
            "value": "tel:01945700223",
            "use": "work"
          }
        ]
      },
      "fullUrl": "urn:uuid:d4b569e7-ccf6-4bb2-029b-34b6f3e82acf"
    },
    {
      "resource": {
        "resourceType": "Organization",
        "id": "b65dd3a2-9551-45a3-3e9d-342f8de14d8f",
        "identifier": [
          {
            "system": "https://fhir.nhs.uk/Id/ods-organization-code",
            "value": "RBA"
          }
        ],
        "type": [
          {
            "coding": [
              {
                "system": "https://fhir.nhs.uk/CodeSystem/organisation-role",
                "code": "RO197",
                "display": "NHS TRUST"
              }
            ]
          }
        ],
        "name": "TAUNTON AND SOMERSET NHS FOUNDATION TRUST",
        "address": [
          {
            "line": [
              "MUSGROVE PARK HOSPITAL",
              "PARKFIELD DRIVE",
              "TAUNTON"
            ],
            "postalCode": "TA1 5DA"
          }
        ],
        "telecom": [
          {
            "system": "phone",
            "value": "01823333444",
            "use": "work"
          }
        ]
      },
      "fullUrl": "urn:uuid:b65dd3a2-9551-45a3-3e9d-342f8de14d8f"
    },
    {
      "fullUrl": "urn:uuid:54b0506d-49af-4245-9d40-d7d64902055e",
      "resource": {
        "resourceType": "HealthcareService",
        "id": "54b0506d-49af-4245-9d40-d7d64902055e",
        "identifier": [
          {
            "use": "usual",
            "system": "https://fhir.nhs.uk/Id/ods-organization-code",
            "value": "A99968"
          }
        ],
        "active": true,
        "providedBy": {
          "identifier": {
            "system": "https://fhir.nhs.uk/Id/ods-organization-code",
            "value": "RBA"
          }
        },
        "location": [
          {
            "reference": "urn:uuid:8a5d7d67-64fb-44ec-9802-2dc214bb3dcb"
          }
        ],
        "name": "SOMERSET BOWEL CANCER SCREENING CENTRE",
        "telecom": [
          {
            "system": "phone",
            "value": "01823 333444",
            "use": "work"
          }
        ]
      }
    },
    {
      "fullUrl": "urn:uuid:8a5d7d67-64fb-44ec-9802-2dc214bb3dcb",
      "resource": {
        "resourceType": "Location",
        "id": "8a5d7d67-64fb-44ec-9802-2dc214bb3dcb",
        "identifier": [
          {
            "value": "10008800708"
          }
        ],
        "status": "active",
        "mode": "instance",
        "address": {
          "use": "work",
          "line": [
            "MUSGROVE PARK HOSPITAL"
          ],
          "city": "TAUNTON",
          "postalCode": "TA1 5DA"
        }
      }
    }
  ]
}
